expName	subject	pairs	cs1	cs2	block	trial	condition	rating	rt	shock	picName	timestamp
LookAtMe1.2	41	1	1	1	1	1	41	5	0.6927269622683525	False	stim\8 F080C + F101C.jpg	2019-02-15 10:51:55
LookAtMe1.2	41	1	1	1	1	2	46	1	0.6052738958969712	False	stim\7 F080C.jpg	2019-02-15 10:52:05
LookAtMe1.2	41	1	1	1	1	3	16	5	0.5469092531129718	False	stim\1 M024C.jpg	2019-02-15 10:52:14
LookAtMe1.2	41	1	1	1	1	4	11	1	0.38739435467869043	False	stim\2 M024C + M010C.jpg	2019-02-15 10:52:23
LookAtMe1.2	41	1	1	1	1	5	41	1	0.7799372505396605	False	stim\8 F080C + F101C.jpg	2019-02-15 10:52:33
LookAtMe1.2	41	1	1	1	1	6	11	1	0.587935920804739	False	stim\2 M024C + M010C.jpg	2019-02-15 10:52:42
LookAtMe1.2	41	1	1	1	1	7	16	1	0.5971498098224401	False	stim\1 M024C.jpg	2019-02-15 10:52:52
LookAtMe1.2	41	1	1	1	1	8	46	5	0.37482963409274817	False	stim\7 F080C.jpg	2019-02-15 10:53:00
LookAtMe1.2	41	1	1	1	1	9	11	3	0.5109671261161566	False	stim\2 M024C + M010C.jpg	2019-02-15 10:53:10
LookAtMe1.2	41	1	1	1	1	10	16	3	0.5443026823922992	False	stim\1 M024C.jpg	2019-02-15 10:53:19
LookAtMe1.2	41	1	1	1	1	11	46	3	0.5176856173202395	False	stim\7 F080C.jpg	2019-02-15 10:53:28
LookAtMe1.2	41	1	1	1	1	12	41	3	0.635464140214026	False	stim\8 F080C + F101C.jpg	2019-02-15 10:53:38
LookAtMe1.2	41	1	1	1	1	13	16	2	1.4553686035797	False	stim\1 M024C.jpg	2019-02-15 10:53:48
LookAtMe1.2	41	1	1	1	1	14	41	2	0.9768091849982738	False	stim\8 F080C + F101C.jpg	2019-02-15 10:53:57
LookAtMe1.2	41	1	1	1	1	15	46	2	0.6492421561852098	False	stim\7 F080C.jpg	2019-02-15 10:54:05
LookAtMe1.2	41	1	1	1	1	16	11	1	1.0147437239065766	False	stim\2 M024C + M010C.jpg	2019-02-15 10:54:15
LookAtMe1.2	41	1	1	1	1	17	16	1	0.6575777735561132	True	stim\1 M024C.jpg	2019-02-15 10:54:24
LookAtMe1.2	41	1	1	1	1	18	41	5	0.4707973971962929	False	stim\8 F080C + F101C.jpg	2019-02-15 10:54:33
LookAtMe1.2	41	1	1	1	1	19	11	1	0.35343352146446705	False	stim\2 M024C + M010C.jpg	2019-02-15 10:54:43
LookAtMe1.2	41	1	1	1	1	20	46	5	0.3748942343518138	True	stim\7 F080C.jpg	2019-02-15 10:54:52
LookAtMe1.2	41	1	1	1	1	21	41	1	0.46424055751413107	False	stim\8 F080C + F101C.jpg	2019-02-15 10:55:02
LookAtMe1.2	41	1	1	1	1	22	46	5	0.31912414357066154	True	stim\7 F080C.jpg	2019-02-15 10:55:12
LookAtMe1.2	41	1	1	1	1	23	16	1	0.43829113617539406	True	stim\1 M024C.jpg	2019-02-15 10:55:21
LookAtMe1.2	41	1	1	1	1	24	11	1	0.4962309142574668	False	stim\2 M024C + M010C.jpg	2019-02-15 10:55:31
LookAtMe1.2	41	1	1	1	1	25	16	5	0.3538932390511036	False	stim\1 M024C.jpg	2019-02-15 10:55:39
LookAtMe1.2	41	1	1	1	1	26	46	1	0.42197205126285553	True	stim\7 F080C.jpg	2019-02-15 10:55:47
LookAtMe1.2	41	1	1	1	1	27	41	1	0.6889810124412179	False	stim\8 F080C + F101C.jpg	2019-02-15 10:55:56
LookAtMe1.2	41	1	1	1	1	28	11	1	0.4025328950956464	False	stim\2 M024C + M010C.jpg	2019-02-15 10:56:05
LookAtMe1.2	41	1	1	1	1	29	41	1	0.4247495885938406	False	stim\8 F080C + F101C.jpg	2019-02-15 10:56:14
LookAtMe1.2	41	1	1	1	1	30	11	1	0.5270584542304277	False	stim\2 M024C + M010C.jpg	2019-02-15 10:56:22
LookAtMe1.2	41	1	1	1	1	31	16	5	0.3140299888327718	True	stim\1 M024C.jpg	2019-02-15 10:56:32
LookAtMe1.2	41	1	1	1	1	32	46	5	0.38495003804564476	False	stim\7 F080C.jpg	2019-02-15 10:56:41
LookAtMe1.2	41	1	1	1	1	33	11	1	0.3900441937148571	False	stim\2 M024C + M010C.jpg	2019-02-15 10:56:50
LookAtMe1.2	41	1	1	1	1	34	46	4	0.3555818758904934	True	stim\7 F080C.jpg	2019-02-15 10:56:58
LookAtMe1.2	41	1	1	1	1	35	16	1	0.5781454313546419	True	stim\1 M024C.jpg	2019-02-15 10:57:08
LookAtMe1.2	41	1	1	1	1	36	41	1	0.5748213408514857	False	stim\8 F080C + F101C.jpg	2019-02-15 10:57:17
LookAtMe1.2	41	1	1	1	1	37	46	4	-0.1966976635158062	False	stim\7 F080C.jpg	2019-02-15 10:57:25
LookAtMe1.2	41	1	1	1	1	38	41	1	0.40003659669309855	False	stim\8 F080C + F101C.jpg	2019-02-15 10:57:35
LookAtMe1.2	41	1	1	1	1	39	16	4	0.3499634023755789	True	stim\1 M024C.jpg	2019-02-15 10:57:44
LookAtMe1.2	41	1	1	1	1	40	11	2	1.2241677604615688	False	stim\2 M024C + M010C.jpg	2019-02-15 10:57:53
LookAtMe1.2	41	1	1	1	1	41	16	5	0.33803086820989847	False	stim\1 M024C.jpg	2019-02-15 10:58:03
LookAtMe1.2	41	1	1	1	1	42	41	1	0.5073371576145291	False	stim\8 F080C + F101C.jpg	2019-02-15 10:58:11
LookAtMe1.2	41	1	1	1	1	43	46	4	0.6637355899438262	True	stim\7 F080C.jpg	2019-02-15 10:58:20
LookAtMe1.2	41	1	1	1	1	44	11	1	0.5190103864297271	False	stim\2 M024C + M010C.jpg	2019-02-15 10:58:28
LookAtMe1.2	41	1	1	1	1	45	16	4	0.3376153204590082	True	stim\1 M024C.jpg	2019-02-15 10:58:38
LookAtMe1.2	41	1	1	1	1	46	11	1	0.40127573255449533	False	stim\2 M024C + M010C.jpg	2019-02-15 10:58:47
LookAtMe1.2	41	1	1	1	1	47	46	4	0.37274017091840506	True	stim\7 F080C.jpg	2019-02-15 10:58:56
LookAtMe1.2	41	1	1	1	1	48	41	1	0.5453197713941336	False	stim\8 F080C + F101C.jpg	2019-02-15 10:59:05
LookAtMe1.2	41	1	1	1	2	49	12	1	0.6088777240365744	False	stim\morph\1&2 80.jpg	2019-02-15 11:01:32
LookAtMe1.2	41	1	1	1	2	50	16	5	0.6291939495131373	True	stim\1 M024C.jpg	2019-02-15 11:01:41
LookAtMe1.2	41	1	1	1	2	51	15	5	0.3427305081859231	False	stim\morph\1&2 20.jpg	2019-02-15 11:01:50
LookAtMe1.2	41	1	1	1	2	52	14	1	0.5580049799755216	False	stim\morph\1&2 40.jpg	2019-02-15 11:02:00
LookAtMe1.2	41	1	1	1	2	53	16	1	0.5668336674571037	False	stim\1 M024C.jpg	2019-02-15 11:02:08
LookAtMe1.2	41	1	1	1	2	54	43	5	0.6255261218175292	False	stim\morph\7&8 60.jpg	2019-02-15 11:02:18
LookAtMe1.2	41	1	1	1	2	55	45	1	0.4283224679529667	False	stim\morph\7&8 20.jpg	2019-02-15 11:02:27
LookAtMe1.2	41	1	1	1	2	56	13	1	0.6659707799553871	False	stim\morph\1&2 60.jpg	2019-02-15 11:02:37
LookAtMe1.2	41	1	1	1	2	57	41	1	0.8978056134656072	False	stim\8 F080C + F101C.jpg	2019-02-15 11:02:45
LookAtMe1.2	41	1	1	1	2	58	46	2	0.5972135085612535	True	stim\7 F080C.jpg	2019-02-15 11:02:54
LookAtMe1.2	41	1	1	1	2	59	11	1	0.6540169129148126	False	stim\2 M024C + M010C.jpg	2019-02-15 11:03:03
LookAtMe1.2	41	1	1	1	2	60	42	1	0.4066508263349533	False	stim\morph\7&8 80.jpg	2019-02-15 11:03:13
LookAtMe1.2	41	1	1	1	2	61	46	4	0.5226268339902163	False	stim\7 F080C.jpg	2019-02-15 11:03:22
LookAtMe1.2	41	1	1	1	2	62	44	4	0.5113502237945795	False	stim\morph\7&8 40.jpg	2019-02-15 11:03:31
LookAtMe1.2	41	1	1	1	2	63	16	4	0.45952229015529156	False	stim\1 M024C.jpg	2019-02-15 11:03:41
LookAtMe1.2	41	1	1	1	2	64	15	4	0.6481268154457211	False	stim\morph\1&2 20.jpg	2019-02-15 11:03:51
LookAtMe1.2	41	1	1	1	2	65	45	3	0.3461288148537278	False	stim\morph\7&8 20.jpg	2019-02-15 11:04:00
LookAtMe1.2	41	1	1	1	2	66	46	2	0.566157010383904	True	stim\7 F080C.jpg	2019-02-15 11:04:10
LookAtMe1.2	41	1	1	1	2	67	13	1	0.6509019490331411	False	stim\morph\1&2 60.jpg	2019-02-15 11:04:19
LookAtMe1.2	41	1	1	1	2	68	16	4	0.3873970592394471	True	stim\1 M024C.jpg	2019-02-15 11:04:28
LookAtMe1.2	41	1	1	1	2	69	42	1	0.5997834224253893	False	stim\morph\7&8 80.jpg	2019-02-15 11:04:38
LookAtMe1.2	41	1	1	1	2	70	12	1	1.6295304745435715	False	stim\morph\1&2 80.jpg	2019-02-15 11:04:47
LookAtMe1.2	41	1	1	1	2	71	46	4	0.41589596308767796	False	stim\7 F080C.jpg	2019-02-15 11:04:55
LookAtMe1.2	41	1	1	1	2	72	44	2	0.31373763270676136	False	stim\morph\7&8 40.jpg	2019-02-15 11:05:03
LookAtMe1.2	41	1	1	1	2	73	41	1	0.4586905911564827	False	stim\8 F080C + F101C.jpg	2019-02-15 11:05:13
LookAtMe1.2	41	1	1	1	2	74	11	1	0.45459579676389694	False	stim\2 M024C + M010C.jpg	2019-02-15 11:05:23
LookAtMe1.2	41	1	1	1	2	75	14	4	0.4706026930361986	False	stim\morph\1&2 40.jpg	2019-02-15 11:05:31
LookAtMe1.2	41	1	1	1	2	76	43	4	0.29863845370709896	False	stim\morph\7&8 60.jpg	2019-02-15 11:05:40
LookAtMe1.2	41	1	1	1	2	77	14		-99	False	stim\morph\1&2 40.jpg	2019-02-15 11:05:49
LookAtMe1.2	41	1	1	1	2	78	43	1	0.668275979347527	False	stim\morph\7&8 60.jpg	2019-02-15 11:05:58
LookAtMe1.2	41	1	1	1	2	79	42	1	0.9008743055164814	False	stim\morph\7&8 80.jpg	2019-02-15 11:06:07
LookAtMe1.2	41	1	1	1	2	80	15	1	1.0756527399644256	False	stim\morph\1&2 20.jpg	2019-02-15 11:06:16
LookAtMe1.2	41	1	1	1	2	81	16	5	0.3324875123798847	True	stim\1 M024C.jpg	2019-02-15 11:06:24
LookAtMe1.2	41	1	1	1	2	82	13	5	0.4855546420440078	False	stim\morph\1&2 60.jpg	2019-02-15 11:06:32
LookAtMe1.2	41	1	1	1	2	83	44	3	0.5531515013426542	False	stim\morph\7&8 40.jpg	2019-02-15 11:06:41
LookAtMe1.2	41	1	1	1	2	84	46	2	0.33963387180119753	False	stim\7 F080C.jpg	2019-02-15 11:06:50
LookAtMe1.2	41	1	1	1	2	85	41	1	0.4220766145735979	False	stim\8 F080C + F101C.jpg	2019-02-15 11:06:59
LookAtMe1.2	41	1	1	1	2	86	12	1	0.47919611260294914	False	stim\morph\1&2 80.jpg	2019-02-15 11:07:07
LookAtMe1.2	41	1	1	1	2	87	46	2	0.3648961214348674	True	stim\7 F080C.jpg	2019-02-15 11:07:16
LookAtMe1.2	41	1	1	1	2	88	16	4	0.32949994690716267	False	stim\1 M024C.jpg	2019-02-15 11:07:26
LookAtMe1.2	41	1	1	1	2	89	45	1	0.5911166882142425	False	stim\morph\7&8 20.jpg	2019-02-15 11:07:34
LookAtMe1.2	41	1	1	1	2	90	11	1	0.9511944856494665	False	stim\2 M024C + M010C.jpg	2019-02-15 11:07:44
LookAtMe1.2	41	1	1	1	2	91	45	1	0.414313992485404	False	stim\morph\7&8 20.jpg	2019-02-15 11:07:53
LookAtMe1.2	41	1	1	1	2	92	11	1	0.6216828199103475	False	stim\2 M024C + M010C.jpg	2019-02-15 11:08:02
LookAtMe1.2	41	1	1	1	2	93	46	2	0.6484480164945126	False	stim\7 F080C.jpg	2019-02-15 11:08:12
LookAtMe1.2	41	1	1	1	2	94	42	1	0.6567848352715373	False	stim\morph\7&8 80.jpg	2019-02-15 11:08:21
LookAtMe1.2	41	1	1	1	2	95	41	1	0.5520022073760629	False	stim\8 F080C + F101C.jpg	2019-02-15 11:08:30
LookAtMe1.2	41	1	1	1	2	96	46	2	0.3797885784879327	True	stim\7 F080C.jpg	2019-02-15 11:08:39
LookAtMe1.2	41	1	1	1	2	97	15	5	0.733621122315526	False	stim\morph\1&2 20.jpg	2019-02-15 11:08:47
LookAtMe1.2	41	1	1	1	2	98	44	1	0.7396458312869072	False	stim\morph\7&8 40.jpg	2019-02-15 11:08:57
LookAtMe1.2	41	1	1	1	2	99	16	4	0.29681821167469025	False	stim\1 M024C.jpg	2019-02-15 11:09:05
LookAtMe1.2	41	1	1	1	2	100	43	1	1.044212842360139	False	stim\morph\7&8 60.jpg	2019-02-15 11:09:15
LookAtMe1.2	41	1	1	1	2	101	16	4	0.3153962232172489	True	stim\1 M024C.jpg	2019-02-15 11:09:25
LookAtMe1.2	41	1	1	1	2	102	12	1	0.5288844062015414	False	stim\morph\1&2 80.jpg	2019-02-15 11:09:34
LookAtMe1.2	41	1	1	1	2	103	13		-99	False	stim\morph\1&2 60.jpg	2019-02-15 11:09:42
LookAtMe1.2	41	1	1	1	2	104	14	2	0.4228127645328641	False	stim\morph\1&2 40.jpg	2019-02-15 11:09:51
LookAtMe1.2	41	1	1	1	2	105	44	1	0.3874189928174019	False	stim\morph\7&8 40.jpg	2019-02-15 11:10:01
LookAtMe1.2	41	1	1	1	2	106	46	4	0.4540477404370904	False	stim\7 F080C.jpg	2019-02-15 11:10:09
LookAtMe1.2	41	1	1	1	2	107	42	1	0.4064020374789834	False	stim\morph\7&8 80.jpg	2019-02-15 11:10:17
LookAtMe1.2	41	1	1	1	2	108	16	4	0.38411683682352304	True	stim\1 M024C.jpg	2019-02-15 11:10:26
LookAtMe1.2	41	1	1	1	2	109	43	1	0.6225118143483996	False	stim\morph\7&8 60.jpg	2019-02-15 11:10:34
LookAtMe1.2	41	1	1	1	2	110	45	2	1.0977273117750883	False	stim\morph\7&8 20.jpg	2019-02-15 11:10:44
LookAtMe1.2	41	1	1	1	2	111	11	1	0.8648555586114526	False	stim\2 M024C + M010C.jpg	2019-02-15 11:10:52
LookAtMe1.2	41	1	1	1	2	112	16	4	0.381971787661314	False	stim\1 M024C.jpg	2019-02-15 11:11:02
LookAtMe1.2	41	1	1	1	2	113	41	1	0.5818847715854645	False	stim\8 F080C + F101C.jpg	2019-02-15 11:11:12
LookAtMe1.2	41	1	1	1	2	114	13	1	0.7352033937349916	False	stim\morph\1&2 60.jpg	2019-02-15 11:11:21
LookAtMe1.2	41	1	1	1	2	115	15	4	0.32839001435786486	False	stim\morph\1&2 20.jpg	2019-02-15 11:11:30
LookAtMe1.2	41	1	1	1	2	116	46	1	1.4088069926947355	True	stim\7 F080C.jpg	2019-02-15 11:11:39
LookAtMe1.2	41	1	1	1	2	117	14	4	0.5434538573026657	False	stim\morph\1&2 40.jpg	2019-02-15 11:11:48
LookAtMe1.2	41	1	1	1	2	118	12	1	0.7875430267304182	False	stim\morph\1&2 80.jpg	2019-02-15 11:11:57
LookAtMe1.2	41	1	1	1	2	119	14	1	0.7651391411200166	False	stim\morph\1&2 40.jpg	2019-02-15 11:12:06
LookAtMe1.2	41	1	1	1	2	120	43	1	0.39619029127061367	False	stim\morph\7&8 60.jpg	2019-02-15 11:12:15
LookAtMe1.2	41	1	1	1	2	121	44	1	0.9514015084132552	False	stim\morph\7&8 40.jpg	2019-02-15 11:12:25
LookAtMe1.2	41	1	1	1	2	122	46	1	0.65962637308985	False	stim\7 F080C.jpg	2019-02-15 11:12:33
LookAtMe1.2	41	1	1	1	2	123	12	1	0.708133521489799	False	stim\morph\1&2 80.jpg	2019-02-15 11:12:41
LookAtMe1.2	41	1	1	1	2	124	16	5	0.37254997435957193	True	stim\1 M024C.jpg	2019-02-15 11:12:50
LookAtMe1.2	41	1	1	1	2	125	42	1	0.746757335960865	False	stim\morph\7&8 80.jpg	2019-02-15 11:12:59
LookAtMe1.2	41	1	1	1	2	126	15	4	0.6630018437281251	False	stim\morph\1&2 20.jpg	2019-02-15 11:13:08
LookAtMe1.2	41	1	1	1	2	127	11	1	1.2105535008013248	False	stim\2 M024C + M010C.jpg	2019-02-15 11:13:17
LookAtMe1.2	41	1	1	1	2	128	13	3	0.48041151091456413	False	stim\morph\1&2 60.jpg	2019-02-15 11:13:26
LookAtMe1.2	41	1	1	1	2	129	46	1	0.9165840372443199	True	stim\7 F080C.jpg	2019-02-15 11:13:34
LookAtMe1.2	41	1	1	1	2	130	16	4	1.3056396869942546	False	stim\1 M024C.jpg	2019-02-15 11:13:42
LookAtMe1.2	41	1	1	1	2	131	45	1	0.5923804612830281	False	stim\morph\7&8 20.jpg	2019-02-15 11:13:50
LookAtMe1.2	41	1	1	1	2	132	41	1	0.4585036998614669	False	stim\8 F080C + F101C.jpg	2019-02-15 11:13:58
LookAtMe1.2	41	1	1	1	2	133	16	4	0.32085124123841524	False	stim\1 M024C.jpg	2019-02-15 11:14:07
LookAtMe1.2	41	1	1	1	2	134	15	4	1.3610501158982515	False	stim\morph\1&2 20.jpg	2019-02-15 11:14:16
LookAtMe1.2	41	1	1	1	2	135	41	1	0.4402895560488105	False	stim\8 F080C + F101C.jpg	2019-02-15 11:14:26
LookAtMe1.2	41	1	1	1	2	136	13	1	1.0030031893402338	False	stim\morph\1&2 60.jpg	2019-02-15 11:14:36
LookAtMe1.2	41	1	1	1	2	137	46	4	1.1119551286101341	False	stim\7 F080C.jpg	2019-02-15 11:14:44
LookAtMe1.2	41	1	1	1	2	138	16	5	0.35019386280328035	True	stim\1 M024C.jpg	2019-02-15 11:14:53
LookAtMe1.2	41	1	1	1	2	139	12	1	0.5631826659664512	False	stim\morph\1&2 80.jpg	2019-02-15 11:15:01
LookAtMe1.2	41	1	1	1	2	140	11	1	0.6150508634746075	False	stim\2 M024C + M010C.jpg	2019-02-15 11:15:10
LookAtMe1.2	41	1	1	1	2	141	14	4	0.9002370107918978	False	stim\morph\1&2 40.jpg	2019-02-15 11:15:19
LookAtMe1.2	41	1	1	1	2	142	43	1	0.3690753486007452	False	stim\morph\7&8 60.jpg	2019-02-15 11:15:27
LookAtMe1.2	41	1	1	1	2	143	46	1	0.8107092035934329	True	stim\7 F080C.jpg	2019-02-15 11:15:36
LookAtMe1.2	41	1	1	1	2	144	42	1	0.6499347379431129	False	stim\morph\7&8 80.jpg	2019-02-15 11:15:44
LookAtMe1.2	41	1	1	1	2	145	44	1	0.8137802993878722	False	stim\morph\7&8 40.jpg	2019-02-15 11:15:54
LookAtMe1.2	41	1	1	1	2	146	46	1	0.5394723396748304	True	stim\7 F080C.jpg	2019-02-15 11:16:02
LookAtMe1.2	41	1	1	1	2	147	45	1	0.7218998186290264	False	stim\morph\7&8 20.jpg	2019-02-15 11:16:11
LookAtMe1.2	41	1	1	1	2	148	12	1	0.40398656483739614	False	stim\morph\1&2 80.jpg	2019-02-15 11:16:21
LookAtMe1.2	41	1	1	1	2	149	43	1	0.6216049985960126	False	stim\morph\7&8 60.jpg	2019-02-15 11:16:30
LookAtMe1.2	41	1	1	1	2	150	14	1	0.759569943882525	False	stim\morph\1&2 40.jpg	2019-02-15 11:16:40
LookAtMe1.2	41	1	1	1	2	151	16	5	0.32394306920468807	True	stim\1 M024C.jpg	2019-02-15 11:16:50
LookAtMe1.2	41	1	1	1	2	152	42	1	0.6255988348275423	False	stim\morph\7&8 80.jpg	2019-02-15 11:16:59
LookAtMe1.2	41	1	1	1	2	153	45	4	0.8504645861685276	False	stim\morph\7&8 20.jpg	2019-02-15 11:17:09
LookAtMe1.2	41	1	1	1	2	154	16	5	0.33566076774150133	False	stim\1 M024C.jpg	2019-02-15 11:17:19
LookAtMe1.2	41	1	1	1	2	155	13	1	0.5155567936599255	False	stim\morph\1&2 60.jpg	2019-02-15 11:17:28
LookAtMe1.2	41	1	1	1	2	156	44	1	0.36765382811427116	False	stim\morph\7&8 40.jpg	2019-02-15 11:17:36
LookAtMe1.2	41	1	1	1	2	157	15	2	0.8239887403324246	False	stim\morph\1&2 20.jpg	2019-02-15 11:17:44
LookAtMe1.2	41	1	1	1	2	158	41	1	0.462270381860435	False	stim\8 F080C + F101C.jpg	2019-02-15 11:17:53
LookAtMe1.2	41	1	1	1	2	159	11	1	0.6411559293046594	False	stim\2 M024C + M010C.jpg	2019-02-15 11:18:03
LookAtMe1.2	41	1	1	1	2	160	46	4	0.7041958719491959	False	stim\7 F080C.jpg	2019-02-15 11:18:12
