expName	subject	pairs	cs1	cs2	block	trial	condition	rating	rt	shock	picName	timestamp
LookAtMe	13	1	2	1	1	1	41		-1	False	stim\8 F080C + F101C.jpg	2019-01-02 13:41:03
LookAtMe	13	1	2	1	1	2	46	4	1.2137781358323991	False	stim\7 F080C.jpg	2019-01-02 13:41:13
LookAtMe	13	1	2	1	1	3	16	3	1.4410428320989013	False	stim\2 M024C + M010C.jpg	2019-01-02 13:41:22
LookAtMe	13	1	2	1	1	4	11	4	0.9220510749146342	False	stim\1 M024C.jpg	2019-01-02 13:41:32
LookAtMe	13	1	2	1	1	5	41	3	1.3149890867061913	False	stim\8 F080C + F101C.jpg	2019-01-02 13:41:40
LookAtMe	13	1	2	1	1	6	11	3	1.060852527152747	False	stim\1 M024C.jpg	2019-01-02 13:41:48
LookAtMe	13	1	2	1	1	7	16	2	0.701899386011064	False	stim\2 M024C + M010C.jpg	2019-01-02 13:41:57
LookAtMe	13	1	2	1	1	8	46	3	0.8299605664797127	False	stim\7 F080C.jpg	2019-01-02 13:42:06
LookAtMe	13	1	2	1	1	9	11		-1	False	stim\1 M024C.jpg	2019-01-02 13:42:16
LookAtMe	13	1	2	1	1	10	16	2	0.7135509815998375	False	stim\2 M024C + M010C.jpg	2019-01-02 13:42:26
LookAtMe	13	1	2	1	1	11	46	4	0.8003415130078793	False	stim\7 F080C.jpg	2019-01-02 13:42:34
LookAtMe	13	1	2	1	1	12	41		-1	False	stim\8 F080C + F101C.jpg	2019-01-02 13:42:43
LookAtMe	13	1	2	1	1	13	16	3	0.7780869603157043	False	stim\2 M024C + M010C.jpg	2019-01-02 13:42:51
LookAtMe	13	1	2	1	1	14	41	3	0.8684347476810217	False	stim\8 F080C + F101C.jpg	2019-01-02 13:43:01
LookAtMe	13	1	2	1	1	15	46	2	0.9442184916697443	False	stim\7 F080C.jpg	2019-01-02 13:43:10
LookAtMe	13	1	2	1	1	16	11	2	1.2541407658718526	False	stim\1 M024C.jpg	2019-01-02 13:43:20
LookAtMe	13	1	2	1	1	17	16	2	0.6525623411871493	True	stim\2 M024C + M010C.jpg	2019-01-02 13:43:29
LookAtMe	13	1	2	1	1	18	41	3	1.3491013566963375	False	stim\8 F080C + F101C.jpg	2019-01-02 13:43:38
LookAtMe	13	1	2	1	1	19	11	3	1.383172762580216	False	stim\1 M024C.jpg	2019-01-02 13:43:48
LookAtMe	13	1	2	1	1	20	46	2	0.5791982761584222	True	stim\7 F080C.jpg	2019-01-02 13:43:58
LookAtMe	13	1	2	1	1	21	41	3	0.44389668898656964	False	stim\8 F080C + F101C.jpg	2019-01-02 13:44:06
LookAtMe	13	1	2	1	1	22	46	4	0.5377182005904615	True	stim\7 F080C.jpg	2019-01-02 13:44:16
LookAtMe	13	1	2	1	1	23	16	3	1.6674550976604223	True	stim\2 M024C + M010C.jpg	2019-01-02 13:44:25
LookAtMe	13	1	2	1	1	24	11	4	1.1627269140444696	False	stim\1 M024C.jpg	2019-01-02 13:44:33
LookAtMe	13	1	2	1	1	25	16	5	0.853042611386627	False	stim\2 M024C + M010C.jpg	2019-01-02 13:44:43
LookAtMe	13	1	2	1	1	26	46	4	0.6151818679645658	True	stim\7 F080C.jpg	2019-01-02 13:44:52
LookAtMe	13	1	2	1	1	27	41	2	1.208284656982869	False	stim\8 F080C + F101C.jpg	2019-01-02 13:45:01
LookAtMe	13	1	2	1	1	28	11	3	1.121123045682907	False	stim\1 M024C.jpg	2019-01-02 13:45:09
LookAtMe	13	1	2	1	1	29	41	2	0.6679725060239434	False	stim\8 F080C + F101C.jpg	2019-01-02 13:45:19
LookAtMe	13	1	2	1	1	30	11	4	1.033879406284541	False	stim\1 M024C.jpg	2019-01-02 13:45:29
LookAtMe	13	1	2	1	1	31	16	5	0.6651021237485111	True	stim\2 M024C + M010C.jpg	2019-01-02 13:45:38
LookAtMe	13	1	2	1	1	32	46		-1	False	stim\7 F080C.jpg	2019-01-02 13:45:47
LookAtMe	13	1	2	1	1	33	11	2	0.7184351081959903	False	stim\1 M024C.jpg	2019-01-02 13:45:56
LookAtMe	13	1	2	1	1	34	46	3	1.1013401527889073	True	stim\7 F080C.jpg	2019-01-02 13:46:04
LookAtMe	13	1	2	1	1	35	16	4	1.4668080676347017	True	stim\2 M024C + M010C.jpg	2019-01-02 13:46:12
LookAtMe	13	1	2	1	1	36	41	2	1.0836632484570146	False	stim\8 F080C + F101C.jpg	2019-01-02 13:46:22
LookAtMe	13	1	2	1	1	37	46	4	0.6163359703496099	False	stim\7 F080C.jpg	2019-01-02 13:46:30
LookAtMe	13	1	2	1	1	38	41	2	0.5915731005370617	False	stim\8 F080C + F101C.jpg	2019-01-02 13:46:40
LookAtMe	13	1	2	1	1	39	16	3	1.3326747044920921	True	stim\2 M024C + M010C.jpg	2019-01-02 13:46:49
LookAtMe	13	1	2	1	1	40	11	3	0.6320955804549158	False	stim\1 M024C.jpg	2019-01-02 13:46:58
LookAtMe	13	1	2	1	1	41	16		-1	False	stim\2 M024C + M010C.jpg	2019-01-02 13:47:08
LookAtMe	13	1	2	1	1	42	41	2	0.5446584387682378	False	stim\8 F080C + F101C.jpg	2019-01-02 13:47:18
LookAtMe	13	1	2	1	1	43	46	3	0.6818022020161152	True	stim\7 F080C.jpg	2019-01-02 13:47:26
LookAtMe	13	1	2	1	1	44	11	3	0.7460683602839708	False	stim\1 M024C.jpg	2019-01-02 13:47:35
LookAtMe	13	1	2	1	1	45	16	2	0.7536020246334374	True	stim\2 M024C + M010C.jpg	2019-01-02 13:47:44
LookAtMe	13	1	2	1	1	46	11	3	1.300849907565862	False	stim\1 M024C.jpg	2019-01-02 13:47:53
LookAtMe	13	1	2	1	1	47	46	3	0.9075879892334342	True	stim\7 F080C.jpg	2019-01-02 13:48:02
LookAtMe	13	1	2	1	1	48	41	2	0.6854997766204178	False	stim\8 F080C + F101C.jpg	2019-01-02 13:48:10
LookAtMe	13	1	2	1	2	49	12	2	1.0375072713941336	False	stim\morph\1&2 20.jpg	2019-01-02 13:50:17
LookAtMe	13	1	2	1	2	50	16	4	0.680476532317698	True	stim\2 M024C + M010C.jpg	2019-01-02 13:50:27
LookAtMe	13	1	2	1	2	51	15	3	0.7908040196634829	False	stim\morph\1&2 80.jpg	2019-01-02 13:50:37
LookAtMe	13	1	2	1	2	52	14	4	1.0943686664104462	False	stim\morph\1&2 60.jpg	2019-01-02 13:50:46
LookAtMe	13	1	2	1	2	53	16	3	1.3362415749579668	False	stim\2 M024C + M010C.jpg	2019-01-02 13:50:55
LookAtMe	13	1	2	1	2	54	43	3	1.3663146370090544	False	stim\morph\7&8 60.jpg	2019-01-02 13:51:05
LookAtMe	13	1	2	1	2	55	45	3	1.2658260138705373	False	stim\morph\7&8 20.jpg	2019-01-02 13:51:13
LookAtMe	13	1	2	1	2	56	13	4	0.5550423543900251	False	stim\morph\1&2 40.jpg	2019-01-02 13:51:22
LookAtMe	13	1	2	1	2	57	41	2	0.7008167952299118	False	stim\8 F080C + F101C.jpg	2019-01-02 13:51:32
LookAtMe	13	1	2	1	2	58	46	3	0.8756030416116118	True	stim\7 F080C.jpg	2019-01-02 13:51:41
LookAtMe	13	1	2	1	2	59	11	3	0.9321639672853053	False	stim\1 M024C.jpg	2019-01-02 13:51:50
LookAtMe	13	1	2	1	2	60	42	4	1.590140763670206	False	stim\morph\7&8 80.jpg	2019-01-02 13:51:58
LookAtMe	13	1	2	1	2	61	46	4	1.0007776143029332	False	stim\7 F080C.jpg	2019-01-02 13:52:08
LookAtMe	13	1	2	1	2	62	44	4	1.0362278735265136	False	stim\morph\7&8 40.jpg	2019-01-02 13:52:16
LookAtMe	13	1	2	1	2	63	16	4	0.6137011558748782	False	stim\2 M024C + M010C.jpg	2019-01-02 13:52:25
LookAtMe	13	1	2	1	2	64	15	4	0.7925046752206981	False	stim\morph\1&2 80.jpg	2019-01-02 13:52:34
LookAtMe	13	1	2	1	2	65	45	3	1.279384687077254	False	stim\morph\7&8 20.jpg	2019-01-02 13:52:43
LookAtMe	13	1	2	1	2	66	46	3	1.0445661945268512	True	stim\7 F080C.jpg	2019-01-02 13:52:52
LookAtMe	13	1	2	1	2	67	13	4	0.6526635996997356	False	stim\morph\1&2 40.jpg	2019-01-02 13:53:02
LookAtMe	13	1	2	1	2	68	16	3	0.7740787016227841	True	stim\2 M024C + M010C.jpg	2019-01-02 13:53:10
LookAtMe	13	1	2	1	2	69	42	2	1.2337644463405013	False	stim\morph\7&8 80.jpg	2019-01-02 13:53:19
LookAtMe	13	1	2	1	2	70	12	3	0.9883210621774197	False	stim\morph\1&2 20.jpg	2019-01-02 13:53:28
LookAtMe	13	1	2	1	2	71	46	3	0.5464050662703812	False	stim\7 F080C.jpg	2019-01-02 13:53:37
LookAtMe	13	1	2	1	2	72	44	2	0.8599164453335106	False	stim\morph\7&8 40.jpg	2019-01-02 13:53:46
LookAtMe	13	1	2	1	2	73	41	1	0.6316403695382178	False	stim\8 F080C + F101C.jpg	2019-01-02 13:53:56
LookAtMe	13	1	2	1	2	74	11	3	1.6597693958319724	False	stim\1 M024C.jpg	2019-01-02 13:54:05
LookAtMe	13	1	2	1	2	75	14	4	0.9448059089481831	False	stim\morph\1&2 60.jpg	2019-01-02 13:54:15
LookAtMe	13	1	2	1	2	76	43	3	0.785943930502981	False	stim\morph\7&8 60.jpg	2019-01-02 13:54:23
LookAtMe	13	1	2	1	2	77	14	4	0.5664863251149654	False	stim\morph\1&2 60.jpg	2019-01-02 13:54:33
LookAtMe	13	1	2	1	2	78	43	3	1.4482925534248352	False	stim\morph\7&8 60.jpg	2019-01-02 13:54:42
LookAtMe	13	1	2	1	2	79	42	3	0.4727318179793656	False	stim\morph\7&8 80.jpg	2019-01-02 13:54:51
LookAtMe	13	1	2	1	2	80	15	5	0.5463645029813051	False	stim\morph\1&2 80.jpg	2019-01-02 13:55:00
LookAtMe	13	1	2	1	2	81	16	5	0.6866959445178509	True	stim\2 M024C + M010C.jpg	2019-01-02 13:55:08
LookAtMe	13	1	2	1	2	82	13	3	0.7252233088947833	False	stim\morph\1&2 40.jpg	2019-01-02 13:55:17
LookAtMe	13	1	2	1	2	83	44	2	1.009117437992245	False	stim\morph\7&8 40.jpg	2019-01-02 13:55:26
LookAtMe	13	1	2	1	2	84	46	3	0.5020540077239275	False	stim\7 F080C.jpg	2019-01-02 13:55:35
LookAtMe	13	1	2	1	2	85	41	1	0.7484132223762572	False	stim\8 F080C + F101C.jpg	2019-01-02 13:55:45
LookAtMe	13	1	2	1	2	86	12	3	0.5216229665093124	False	stim\morph\1&2 20.jpg	2019-01-02 13:55:54
LookAtMe	13	1	2	1	2	87	46	2	0.4597154916264117	True	stim\7 F080C.jpg	2019-01-02 13:56:02
LookAtMe	13	1	2	1	2	88	16	4	1.080809992738068	False	stim\2 M024C + M010C.jpg	2019-01-02 13:56:11
LookAtMe	13	1	2	1	2	89	45	2	1.2352818162180483	False	stim\morph\7&8 20.jpg	2019-01-02 13:56:21
LookAtMe	13	1	2	1	2	90	11	2	0.9295979598537087	False	stim\1 M024C.jpg	2019-01-02 13:56:29
LookAtMe	13	1	2	1	2	91	45	2	1.2093299897387624	False	stim\morph\7&8 20.jpg	2019-01-02 13:56:37
LookAtMe	13	1	2	1	2	92	11	1	0.6391151421703398	False	stim\1 M024C.jpg	2019-01-02 13:56:47
LookAtMe	13	1	2	1	2	93	46	2	1.3094772794283926	False	stim\7 F080C.jpg	2019-01-02 13:56:56
LookAtMe	13	1	2	1	2	94	42	3	1.3444047220982611	False	stim\morph\7&8 80.jpg	2019-01-02 13:57:05
LookAtMe	13	1	2	1	2	95	41	1	0.6416712338104844	False	stim\8 F080C + F101C.jpg	2019-01-02 13:57:14
LookAtMe	13	1	2	1	2	96	46	2	1.6617807364091277	True	stim\7 F080C.jpg	2019-01-02 13:57:23
LookAtMe	13	1	2	1	2	97	15	5	0.7781281247735023	False	stim\morph\1&2 80.jpg	2019-01-02 13:57:31
LookAtMe	13	1	2	1	2	98	44	2	1.4171230792999268	False	stim\morph\7&8 40.jpg	2019-01-02 13:57:39
LookAtMe	13	1	2	1	2	99	16	4	1.054637020919472	False	stim\2 M024C + M010C.jpg	2019-01-02 13:57:48
LookAtMe	13	1	2	1	2	100	43	3	1.6529087824746966	False	stim\morph\7&8 60.jpg	2019-01-02 13:57:57
LookAtMe	13	1	2	1	2	101	16	5	0.666487286798656	True	stim\2 M024C + M010C.jpg	2019-01-02 13:58:06
LookAtMe	13	1	2	1	2	102	12	2	0.5338051905855536	False	stim\morph\1&2 20.jpg	2019-01-02 13:58:16
LookAtMe	13	1	2	1	2	103	13	1	0.7684136545285583	False	stim\morph\1&2 40.jpg	2019-01-02 13:58:25
LookAtMe	13	1	2	1	2	104	14	5	0.8171110008843243	False	stim\morph\1&2 60.jpg	2019-01-02 13:58:33
LookAtMe	13	1	2	1	2	105	44	3	0.8372784941457212	False	stim\morph\7&8 40.jpg	2019-01-02 13:58:42
LookAtMe	13	1	2	1	2	106	46	2	0.8834894574247301	False	stim\7 F080C.jpg	2019-01-02 13:58:51
LookAtMe	13	1	2	1	2	107	42	1	0.7759058545343578	False	stim\morph\7&8 80.jpg	2019-01-02 13:59:01
LookAtMe	13	1	2	1	2	108	16	4	1.0911713731475174	True	stim\2 M024C + M010C.jpg	2019-01-02 13:59:10
LookAtMe	13	1	2	1	2	109	43	2	1.3097422933205962	False	stim\morph\7&8 60.jpg	2019-01-02 13:59:19
LookAtMe	13	1	2	1	2	110	45	3	0.5850384961813688	False	stim\morph\7&8 20.jpg	2019-01-02 13:59:28
LookAtMe	13	1	2	1	2	111	11	2	0.5920469406992197	False	stim\1 M024C.jpg	2019-01-02 13:59:37
LookAtMe	13	1	2	1	2	112	16	4	0.7007422791793942	False	stim\2 M024C + M010C.jpg	2019-01-02 13:59:47
LookAtMe	13	1	2	1	2	113	41	3	1.359480164013803	False	stim\8 F080C + F101C.jpg	2019-01-02 13:59:56
LookAtMe	13	1	2	1	2	114	13	2	1.6831531119532883	False	stim\morph\1&2 40.jpg	2019-01-02 14:00:06
LookAtMe	13	1	2	1	2	115	15	3	1.12016965681687	False	stim\morph\1&2 80.jpg	2019-01-02 14:00:15
LookAtMe	13	1	2	1	2	116	46	3	0.8025643844157457	True	stim\7 F080C.jpg	2019-01-02 14:00:24
LookAtMe	13	1	2	1	2	117	14	2	1.0174569603987038	False	stim\morph\1&2 60.jpg	2019-01-02 14:00:33
LookAtMe	13	1	2	1	2	118	12	1	0.8405046323314309	False	stim\morph\1&2 20.jpg	2019-01-02 14:00:43
LookAtMe	13	1	2	1	2	119	14	3	1.7778339656069875	False	stim\morph\1&2 60.jpg	2019-01-02 14:00:52
LookAtMe	13	1	2	1	2	120	43	2	1.2427932457067072	False	stim\morph\7&8 60.jpg	2019-01-02 14:01:00
LookAtMe	13	1	2	1	2	121	44	4	0.6977727417834103	False	stim\morph\7&8 40.jpg	2019-01-02 14:01:08
LookAtMe	13	1	2	1	2	122	46	4	0.6004023887217045	False	stim\7 F080C.jpg	2019-01-02 14:01:18
LookAtMe	13	1	2	1	2	123	12	2	1.4623923720791936	False	stim\morph\1&2 20.jpg	2019-01-02 14:01:27
LookAtMe	13	1	2	1	2	124	16	4	0.6108812522143126	True	stim\2 M024C + M010C.jpg	2019-01-02 14:01:35
LookAtMe	13	1	2	1	2	125	42	2	0.7862627278082073	False	stim\morph\7&8 80.jpg	2019-01-02 14:01:45
LookAtMe	13	1	2	1	2	126	15	4	0.44385882979258895	False	stim\morph\1&2 80.jpg	2019-01-02 14:01:53
LookAtMe	13	1	2	1	2	127	11	2	1.049972236622125	False	stim\1 M024C.jpg	2019-01-02 14:02:02
LookAtMe	13	1	2	1	2	128	13	2	0.7619232190772891	False	stim\morph\1&2 40.jpg	2019-01-02 14:02:10
LookAtMe	13	1	2	1	2	129	46	3	1.8243478015065193	True	stim\7 F080C.jpg	2019-01-02 14:02:19
LookAtMe	13	1	2	1	2	130	16	4	1.5464579490944743	False	stim\2 M024C + M010C.jpg	2019-01-02 14:02:27
LookAtMe	13	1	2	1	2	131	45	3	1.2384851183742285	False	stim\morph\7&8 20.jpg	2019-01-02 14:02:37
LookAtMe	13	1	2	1	2	132	41	1	0.5833014836534858	False	stim\8 F080C + F101C.jpg	2019-01-02 14:02:46
LookAtMe	13	1	2	1	2	133	16	4	0.5700033172033727	False	stim\2 M024C + M010C.jpg	2019-01-02 14:02:56
LookAtMe	13	1	2	1	2	134	15	2	0.6656258413568139	False	stim\morph\1&2 80.jpg	2019-01-02 14:03:05
LookAtMe	13	1	2	1	2	135	41	1	0.576237753033638	False	stim\8 F080C + F101C.jpg	2019-01-02 14:03:13
LookAtMe	13	1	2	1	2	136	13	2	0.76916663069278	False	stim\morph\1&2 40.jpg	2019-01-02 14:03:22
LookAtMe	13	1	2	1	2	137	46		-1	False	stim\7 F080C.jpg	2019-01-02 14:03:31
LookAtMe	13	1	2	1	2	138	16	4	0.6224523214623332	True	stim\2 M024C + M010C.jpg	2019-01-02 14:03:40
LookAtMe	13	1	2	1	2	139	12	2	0.6604956299997866	False	stim\morph\1&2 20.jpg	2019-01-02 14:03:48
LookAtMe	13	1	2	1	2	140	11	2	0.8329310049302876	False	stim\1 M024C.jpg	2019-01-02 14:03:58
LookAtMe	13	1	2	1	2	141	14	3	1.544720035046339	False	stim\morph\1&2 60.jpg	2019-01-02 14:04:06
LookAtMe	13	1	2	1	2	142	43	2	1.2747319214977324	False	stim\morph\7&8 60.jpg	2019-01-02 14:04:16
LookAtMe	13	1	2	1	2	143	46	4	1.2955646538175642	True	stim\7 F080C.jpg	2019-01-02 14:04:24
LookAtMe	13	1	2	1	2	144	42	1	0.7902583675459027	False	stim\morph\7&8 80.jpg	2019-01-02 14:04:33
LookAtMe	13	1	2	1	2	145	44	2	0.5892621916718781	False	stim\morph\7&8 40.jpg	2019-01-02 14:04:42
LookAtMe	13	1	2	1	2	146	46	4	0.8485710285604	True	stim\7 F080C.jpg	2019-01-02 14:04:51
LookAtMe	13	1	2	1	2	147	45	4	0.8576953769661486	False	stim\morph\7&8 20.jpg	2019-01-02 14:05:00
LookAtMe	13	1	2	1	2	148	12	2	0.6955961431376636	False	stim\morph\1&2 20.jpg	2019-01-02 14:05:09
LookAtMe	13	1	2	1	2	149	43	2	0.6707266066223383	False	stim\morph\7&8 60.jpg	2019-01-02 14:05:19
LookAtMe	13	1	2	1	2	150	14	2	1.004140165168792	False	stim\morph\1&2 60.jpg	2019-01-02 14:05:27
LookAtMe	13	1	2	1	2	151	16	4	0.5284700589254498	True	stim\2 M024C + M010C.jpg	2019-01-02 14:05:35
LookAtMe	13	1	2	1	2	152	42	1	0.7540692547336221	False	stim\morph\7&8 80.jpg	2019-01-02 14:05:45
LookAtMe	13	1	2	1	2	153	45	4	0.7618748438544571	False	stim\morph\7&8 20.jpg	2019-01-02 14:05:53
LookAtMe	13	1	2	1	2	154	16	4	1.6463591544888914	False	stim\2 M024C + M010C.jpg	2019-01-02 14:06:02
LookAtMe	13	1	2	1	2	155	13	2	0.8038819418288767	False	stim\morph\1&2 40.jpg	2019-01-02 14:06:12
LookAtMe	13	1	2	1	2	156	44	4	0.7449370939284563	False	stim\morph\7&8 40.jpg	2019-01-02 14:06:21
LookAtMe	13	1	2	1	2	157	15	4	0.948142018634826	False	stim\morph\1&2 80.jpg	2019-01-02 14:06:30
LookAtMe	13	1	2	1	2	158	41	1	0.6214238153770566	False	stim\8 F080C + F101C.jpg	2019-01-02 14:06:39
LookAtMe	13	1	2	1	2	159	11	1	0.5323518202640116	False	stim\1 M024C.jpg	2019-01-02 14:06:48
LookAtMe	13	1	2	1	2	160	46	2	1.1944570639170706	False	stim\7 F080C.jpg	2019-01-02 14:06:57
