expName	subject	pairs	cs1	cs2	block	trial	condition	rating	rt	shock	picName	timestamp
LookAtMe	27	1	1	2	1	1	41	1	1.492566391825676	False	stim\7 F080C.jpg	2019-01-09 11:19:37
LookAtMe	27	1	1	2	1	2	46	1	0.687073634006083	False	stim\8 F080C + F101C.jpg	2019-01-09 11:19:46
LookAtMe	27	1	1	2	1	3	16	1	0.42140055913478136	False	stim\1 M024C.jpg	2019-01-09 11:19:55
LookAtMe	27	1	1	2	1	4	11	1	0.7227441375143826	False	stim\2 M024C + M010C.jpg	2019-01-09 11:20:05
LookAtMe	27	1	1	2	1	5	41	1	0.6354635399766266	False	stim\7 F080C.jpg	2019-01-09 11:20:15
LookAtMe	27	1	1	2	1	6	11	1	0.6182145038619637	False	stim\2 M024C + M010C.jpg	2019-01-09 11:20:24
LookAtMe	27	1	1	2	1	7	16	1	0.6896249181590974	False	stim\1 M024C.jpg	2019-01-09 11:20:34
LookAtMe	27	1	1	2	1	8	46	1	0.674548274371773	False	stim\8 F080C + F101C.jpg	2019-01-09 11:20:43
LookAtMe	27	1	1	2	1	9	11	1	0.6887589660473168	False	stim\2 M024C + M010C.jpg	2019-01-09 11:20:54
LookAtMe	27	1	1	2	1	10	16	1	0.9524642680771649	False	stim\1 M024C.jpg	2019-01-09 11:21:02
LookAtMe	27	1	1	2	1	11	46	1	0.5076454393565655	False	stim\8 F080C + F101C.jpg	2019-01-09 11:21:10
LookAtMe	27	1	1	2	1	12	41	1	0.7246881728060544	False	stim\7 F080C.jpg	2019-01-09 11:21:20
LookAtMe	27	1	1	2	1	13	16	1	0.5301520857028663	False	stim\1 M024C.jpg	2019-01-09 11:21:30
LookAtMe	27	1	1	2	1	14	41	1	1.0166057315655053	False	stim\7 F080C.jpg	2019-01-09 11:21:39
LookAtMe	27	1	1	2	1	15	46	1	0.6123959175311029	False	stim\8 F080C + F101C.jpg	2019-01-09 11:21:49
LookAtMe	27	1	1	2	1	16	11	1	0.5572261642664671	False	stim\2 M024C + M010C.jpg	2019-01-09 11:21:58
LookAtMe	27	1	1	2	1	17	16	1	0.7054869886487722	True	stim\1 M024C.jpg	2019-01-09 11:22:07
LookAtMe	27	1	1	2	1	18	41	1	0.7357908110134304	False	stim\7 F080C.jpg	2019-01-09 11:22:15
LookAtMe	27	1	1	2	1	19	11	1	0.7893290161155164	False	stim\2 M024C + M010C.jpg	2019-01-09 11:22:23
LookAtMe	27	1	1	2	1	20	46	1	0.5798851484432817	True	stim\8 F080C + F101C.jpg	2019-01-09 11:22:32
LookAtMe	27	1	1	2	1	21	41	1	0.67036994965747	False	stim\7 F080C.jpg	2019-01-09 11:22:41
LookAtMe	27	1	1	2	1	22	46	3	0.9504832751117647	True	stim\8 F080C + F101C.jpg	2019-01-09 11:22:50
LookAtMe	27	1	1	2	1	23	16	3	0.6441077385097742	True	stim\1 M024C.jpg	2019-01-09 11:22:59
LookAtMe	27	1	1	2	1	24	11	1	0.6765127424150705	False	stim\2 M024C + M010C.jpg	2019-01-09 11:23:08
LookAtMe	27	1	1	2	1	25	16	4	0.4652900970540941	False	stim\1 M024C.jpg	2019-01-09 11:23:16
LookAtMe	27	1	1	2	1	26	46	3	0.6290629445575178	True	stim\8 F080C + F101C.jpg	2019-01-09 11:23:25
LookAtMe	27	1	1	2	1	27	41	1	0.9661584529094398	False	stim\7 F080C.jpg	2019-01-09 11:23:33
LookAtMe	27	1	1	2	1	28	11	1	0.4595373133197427	False	stim\2 M024C + M010C.jpg	2019-01-09 11:23:41
LookAtMe	27	1	1	2	1	29	41	1	0.3533863481134176	False	stim\7 F080C.jpg	2019-01-09 11:23:50
LookAtMe	27	1	1	2	1	30	11	3	1.1896363361738622	False	stim\2 M024C + M010C.jpg	2019-01-09 11:24:00
LookAtMe	27	1	1	2	1	31	16	3	0.7313480731099844	True	stim\1 M024C.jpg	2019-01-09 11:24:09
LookAtMe	27	1	1	2	1	32	46	4	0.42151083098724484	False	stim\8 F080C + F101C.jpg	2019-01-09 11:24:18
LookAtMe	27	1	1	2	1	33	11	1	0.7381597105413675	False	stim\2 M024C + M010C.jpg	2019-01-09 11:24:26
LookAtMe	27	1	1	2	1	34	46	3	0.5208760001696646	True	stim\8 F080C + F101C.jpg	2019-01-09 11:24:35
LookAtMe	27	1	1	2	1	35	16	4	0.7242786334827542	True	stim\1 M024C.jpg	2019-01-09 11:24:44
LookAtMe	27	1	1	2	1	36	41	1	0.5350659592077136	False	stim\7 F080C.jpg	2019-01-09 11:24:53
LookAtMe	27	1	1	2	1	37	46	4	0.4355959268286824	False	stim\8 F080C + F101C.jpg	2019-01-09 11:25:02
LookAtMe	27	1	1	2	1	38	41	1	0.4194463072344661	False	stim\7 F080C.jpg	2019-01-09 11:25:12
LookAtMe	27	1	1	2	1	39	16	4	0.5331029933877289	True	stim\1 M024C.jpg	2019-01-09 11:25:20
LookAtMe	27	1	1	2	1	40	11	1	0.5448885979130864	False	stim\2 M024C + M010C.jpg	2019-01-09 11:25:28
LookAtMe	27	1	1	2	1	41	16	4	0.5418598684482276	False	stim\1 M024C.jpg	2019-01-09 11:25:38
LookAtMe	27	1	1	2	1	42	41	1	0.6295812539756298	False	stim\7 F080C.jpg	2019-01-09 11:25:47
LookAtMe	27	1	1	2	1	43	46	4	0.738821042701602	True	stim\8 F080C + F101C.jpg	2019-01-09 11:25:56
LookAtMe	27	1	1	2	1	44	11	1	0.6486706640571356	False	stim\2 M024C + M010C.jpg	2019-01-09 11:26:06
LookAtMe	27	1	1	2	1	45	16	4	0.35113102616742253	True	stim\1 M024C.jpg	2019-01-09 11:26:15
LookAtMe	27	1	1	2	1	46	11	1	0.3510330729186535	False	stim\2 M024C + M010C.jpg	2019-01-09 11:26:24
LookAtMe	27	1	1	2	1	47	46	4	0.4129135054536164	True	stim\8 F080C + F101C.jpg	2019-01-09 11:26:32
LookAtMe	27	1	1	2	1	48	41	1	0.32660702941939235	False	stim\7 F080C.jpg	2019-01-09 11:26:42
LookAtMe	27	1	1	2	2	49	12	1	1.254812315106392	False	stim\morph\1&2 80.jpg	2019-01-09 11:29:37
LookAtMe	27	1	1	2	2	50	16	4	0.6452846769243479	True	stim\1 M024C.jpg	2019-01-09 11:29:47
LookAtMe	27	1	1	2	2	51	15	4	1.2086990042589605	False	stim\morph\1&2 20.jpg	2019-01-09 11:29:55
LookAtMe	27	1	1	2	2	52	14	1	0.711223847232759	False	stim\morph\1&2 40.jpg	2019-01-09 11:30:05
LookAtMe	27	1	1	2	2	53	16	4	0.7902670809999108	False	stim\1 M024C.jpg	2019-01-09 11:30:14
LookAtMe	27	1	1	2	2	54	43	1	0.3749645445495844	False	stim\morph\7&8 40.jpg	2019-01-09 11:30:23
LookAtMe	27	1	1	2	2	55	45	1	0.7689301613718271	False	stim\morph\7&8 80.jpg	2019-01-09 11:30:32
LookAtMe	27	1	1	2	2	56	13	1	0.608849779702723	False	stim\morph\1&2 60.jpg	2019-01-09 11:30:42
LookAtMe	27	1	1	2	2	57	41	1	0.6279779500328004	False	stim\7 F080C.jpg	2019-01-09 11:30:52
LookAtMe	27	1	1	2	2	58	46	4	0.4167766384780407	True	stim\8 F080C + F101C.jpg	2019-01-09 11:31:00
LookAtMe	27	1	1	2	2	59	11	1	0.5273120501078665	False	stim\2 M024C + M010C.jpg	2019-01-09 11:31:10
LookAtMe	27	1	1	2	2	60	42	1	0.5104797650128603	False	stim\morph\7&8 20.jpg	2019-01-09 11:31:19
LookAtMe	27	1	1	2	2	61	46	4	0.5016727121546865	False	stim\8 F080C + F101C.jpg	2019-01-09 11:31:27
LookAtMe	27	1	1	2	2	62	44	1	0.5965789179317653	False	stim\morph\7&8 60.jpg	2019-01-09 11:31:37
LookAtMe	27	1	1	2	2	63	16	4	0.490771088283509	False	stim\1 M024C.jpg	2019-01-09 11:31:46
LookAtMe	27	1	1	2	2	64	15	1	0.43108618445694447	False	stim\morph\1&2 20.jpg	2019-01-09 11:31:55
LookAtMe	27	1	1	2	2	65	45	1	0.9781679073348641	False	stim\morph\7&8 80.jpg	2019-01-09 11:32:03
LookAtMe	27	1	1	2	2	66	46	4	1.219240966718644	True	stim\8 F080C + F101C.jpg	2019-01-09 11:32:11
LookAtMe	27	1	1	2	2	67	13	1	1.4045941140502691	False	stim\morph\1&2 60.jpg	2019-01-09 11:32:21
LookAtMe	27	1	1	2	2	68	16	4	0.34722793102264404	True	stim\1 M024C.jpg	2019-01-09 11:32:30
LookAtMe	27	1	1	2	2	69	42	1	0.6355554834008217	False	stim\morph\7&8 20.jpg	2019-01-09 11:32:38
LookAtMe	27	1	1	2	2	70	12	1	0.4455964434891939	False	stim\morph\1&2 80.jpg	2019-01-09 11:32:47
LookAtMe	27	1	1	2	2	71	46	4	0.5835667978972197	False	stim\8 F080C + F101C.jpg	2019-01-09 11:32:55
LookAtMe	27	1	1	2	2	72	44	1	0.6575504308566451	False	stim\morph\7&8 60.jpg	2019-01-09 11:33:05
LookAtMe	27	1	1	2	2	73	41	1	0.7562587740831077	False	stim\7 F080C.jpg	2019-01-09 11:33:13
LookAtMe	27	1	1	2	2	74	11	1	0.4499754817225039	False	stim\2 M024C + M010C.jpg	2019-01-09 11:33:22
LookAtMe	27	1	1	2	2	75	14	1	0.712598193436861	False	stim\morph\1&2 40.jpg	2019-01-09 11:33:30
LookAtMe	27	1	1	2	2	76	43	1	0.4057761603035033	False	stim\morph\7&8 40.jpg	2019-01-09 11:33:39
LookAtMe	27	1	1	2	2	77	14	1	0.5561495833098888	False	stim\morph\1&2 40.jpg	2019-01-09 11:33:49
LookAtMe	27	1	1	2	2	78	43	1	0.5413205260410905	False	stim\morph\7&8 40.jpg	2019-01-09 11:33:59
LookAtMe	27	1	1	2	2	79	42	1	0.42362913955003023	False	stim\morph\7&8 20.jpg	2019-01-09 11:34:08
LookAtMe	27	1	1	2	2	80	15	1	0.4512897338718176	False	stim\morph\1&2 20.jpg	2019-01-09 11:34:17
LookAtMe	27	1	1	2	2	81	16	4	0.7035976378247142	True	stim\1 M024C.jpg	2019-01-09 11:34:27
LookAtMe	27	1	1	2	2	82	13	1	0.5553121757693589	False	stim\morph\1&2 60.jpg	2019-01-09 11:34:37
LookAtMe	27	1	1	2	2	83	44	1	0.679748194757849	False	stim\morph\7&8 60.jpg	2019-01-09 11:34:45
LookAtMe	27	1	1	2	2	84	46	4	0.6067735375836492	False	stim\8 F080C + F101C.jpg	2019-01-09 11:34:53
LookAtMe	27	1	1	2	2	85	41	1	0.744994483422488	False	stim\7 F080C.jpg	2019-01-09 11:35:02
LookAtMe	27	1	1	2	2	86	12	1	0.3429207047447562	False	stim\morph\1&2 80.jpg	2019-01-09 11:35:11
LookAtMe	27	1	1	2	2	87	46	3	1.0140204946510494	True	stim\8 F080C + F101C.jpg	2019-01-09 11:35:20
LookAtMe	27	1	1	2	2	88	16	4	0.619956323876977	False	stim\1 M024C.jpg	2019-01-09 11:35:29
LookAtMe	27	1	1	2	2	89	45	1	1.4224825487472117	False	stim\morph\7&8 80.jpg	2019-01-09 11:35:37
LookAtMe	27	1	1	2	2	90	11	1	0.4847752247005701	False	stim\2 M024C + M010C.jpg	2019-01-09 11:35:46
LookAtMe	27	1	1	2	2	91	45	1	0.5373326987028122	False	stim\morph\7&8 80.jpg	2019-01-09 11:35:55
LookAtMe	27	1	1	2	2	92	11	1	0.458375699352473	False	stim\2 M024C + M010C.jpg	2019-01-09 11:36:04
LookAtMe	27	1	1	2	2	93	46	4	0.6540682930499315	False	stim\8 F080C + F101C.jpg	2019-01-09 11:36:13
LookAtMe	27	1	1	2	2	94	42	1	0.6822426901198924	False	stim\morph\7&8 20.jpg	2019-01-09 11:36:23
LookAtMe	27	1	1	2	2	95	41	1	0.3332939716055989	False	stim\7 F080C.jpg	2019-01-09 11:36:32
LookAtMe	27	1	1	2	2	96	46	4	0.6021616356447339	True	stim\8 F080C + F101C.jpg	2019-01-09 11:36:41
LookAtMe	27	1	1	2	2	97	15	1	1.150666380301118	False	stim\morph\1&2 20.jpg	2019-01-09 11:36:51
LookAtMe	27	1	1	2	2	98	44	1	0.509540799073875	False	stim\morph\7&8 60.jpg	2019-01-09 11:37:00
LookAtMe	27	1	1	2	2	99	16	4	0.652520876377821	False	stim\1 M024C.jpg	2019-01-09 11:37:10
LookAtMe	27	1	1	2	2	100	43	1	0.6375487963669002	False	stim\morph\7&8 40.jpg	2019-01-09 11:37:19
LookAtMe	27	1	1	2	2	101	16	4	0.9703052286058664	True	stim\1 M024C.jpg	2019-01-09 11:37:28
LookAtMe	27	1	1	2	2	102	12	1	0.5856652748771012	False	stim\morph\1&2 80.jpg	2019-01-09 11:37:37
LookAtMe	27	1	1	2	2	103	13	1	0.5858608805574477	False	stim\morph\1&2 60.jpg	2019-01-09 11:37:46
LookAtMe	27	1	1	2	2	104	14	1	0.5979160056449473	False	stim\morph\1&2 40.jpg	2019-01-09 11:37:55
LookAtMe	27	1	1	2	2	105	44	1	0.4367575407959521	False	stim\morph\7&8 60.jpg	2019-01-09 11:38:04
LookAtMe	27	1	1	2	2	106	46	4	0.5760770016349852	False	stim\8 F080C + F101C.jpg	2019-01-09 11:38:13
LookAtMe	27	1	1	2	2	107	42	1	0.5779305966570973	False	stim\morph\7&8 20.jpg	2019-01-09 11:38:23
LookAtMe	27	1	1	2	2	108	16	4	1.0150544089265168	True	stim\1 M024C.jpg	2019-01-09 11:38:33
LookAtMe	27	1	1	2	2	109	43	1	0.40110927214846015	False	stim\morph\7&8 40.jpg	2019-01-09 11:38:41
LookAtMe	27	1	1	2	2	110	45	1	0.4223007648251951	False	stim\morph\7&8 80.jpg	2019-01-09 11:38:50
LookAtMe	27	1	1	2	2	111	11	1	0.5279896087013185	False	stim\2 M024C + M010C.jpg	2019-01-09 11:38:59
LookAtMe	27	1	1	2	2	112	16	4	0.4601400550454855	False	stim\1 M024C.jpg	2019-01-09 11:39:08
LookAtMe	27	1	1	2	2	113	41	1	0.4435189994983375	False	stim\7 F080C.jpg	2019-01-09 11:39:17
LookAtMe	27	1	1	2	2	114	13	1	0.8128118868917227	False	stim\morph\1&2 60.jpg	2019-01-09 11:39:27
LookAtMe	27	1	1	2	2	115	15	1	0.44098093593493104	False	stim\morph\1&2 20.jpg	2019-01-09 11:39:36
LookAtMe	27	1	1	2	2	116	46	4	1.0297734942287207	True	stim\8 F080C + F101C.jpg	2019-01-09 11:39:46
LookAtMe	27	1	1	2	2	117	14	1	0.6387047013267875	False	stim\morph\1&2 40.jpg	2019-01-09 11:39:55
LookAtMe	27	1	1	2	2	118	12	1	0.45550441602244973	False	stim\morph\1&2 80.jpg	2019-01-09 11:40:03
LookAtMe	27	1	1	2	2	119	14	1	0.4232832994312048	False	stim\morph\1&2 40.jpg	2019-01-09 11:40:11
LookAtMe	27	1	1	2	2	120	43	1	0.41518234880641103	False	stim\morph\7&8 40.jpg	2019-01-09 11:40:21
LookAtMe	27	1	1	2	2	121	44	1	0.5598405469208956	False	stim\morph\7&8 60.jpg	2019-01-09 11:40:31
LookAtMe	27	1	1	2	2	122	46	4	0.5515337749384344	False	stim\8 F080C + F101C.jpg	2019-01-09 11:40:40
LookAtMe	27	1	1	2	2	123	12	1	0.5307494178414345	False	stim\morph\1&2 80.jpg	2019-01-09 11:40:49
LookAtMe	27	1	1	2	2	124	16	4	0.6286314711906016	True	stim\1 M024C.jpg	2019-01-09 11:40:58
LookAtMe	27	1	1	2	2	125	42	1	0.4320810381323099	False	stim\morph\7&8 20.jpg	2019-01-09 11:41:07
LookAtMe	27	1	1	2	2	126	15	1	0.502367396838963	False	stim\morph\1&2 20.jpg	2019-01-09 11:41:16
LookAtMe	27	1	1	2	2	127	11	1	0.5379657875746489	False	stim\2 M024C + M010C.jpg	2019-01-09 11:41:24
LookAtMe	27	1	1	2	2	128	13	1	0.47880159644410014	False	stim\morph\1&2 60.jpg	2019-01-09 11:41:35
LookAtMe	27	1	1	2	2	129	46	4	1.001189257018268	True	stim\8 F080C + F101C.jpg	2019-01-09 11:41:43
LookAtMe	27	1	1	2	2	130	16	4	1.1987826186232269	False	stim\1 M024C.jpg	2019-01-09 11:41:51
LookAtMe	27	1	1	2	2	131	45	1	0.6311896657571197	False	stim\morph\7&8 80.jpg	2019-01-09 11:42:00
LookAtMe	27	1	1	2	2	132	41	1	0.49253063555806875	False	stim\7 F080C.jpg	2019-01-09 11:42:09
LookAtMe	27	1	1	2	2	133	16	3	0.4858911675401032	False	stim\1 M024C.jpg	2019-01-09 11:42:18
LookAtMe	27	1	1	2	2	134	15	1	0.8468992174603045	False	stim\morph\1&2 20.jpg	2019-01-09 11:42:26
LookAtMe	27	1	1	2	2	135	41	1	0.47041039261966944	False	stim\7 F080C.jpg	2019-01-09 11:42:36
LookAtMe	27	1	1	2	2	136	13	1	0.44439666997641325	False	stim\morph\1&2 60.jpg	2019-01-09 11:42:45
LookAtMe	27	1	1	2	2	137	46	4	0.4235311863012612	False	stim\8 F080C + F101C.jpg	2019-01-09 11:42:53
LookAtMe	27	1	1	2	2	138	16	3	0.406822694465518	True	stim\1 M024C.jpg	2019-01-09 11:43:03
LookAtMe	27	1	1	2	2	139	12	1	0.3813984920270741	False	stim\morph\1&2 80.jpg	2019-01-09 11:43:13
LookAtMe	27	1	1	2	2	140	11	1	0.5426795482635498	False	stim\2 M024C + M010C.jpg	2019-01-09 11:43:21
LookAtMe	27	1	1	2	2	141	14	1	0.4658835236914456	False	stim\morph\1&2 40.jpg	2019-01-09 11:43:30
LookAtMe	27	1	1	2	2	142	43	1	0.5634371633641422	False	stim\morph\7&8 40.jpg	2019-01-09 11:43:40
LookAtMe	27	1	1	2	2	143	46	4	0.6874546292237937	True	stim\8 F080C + F101C.jpg	2019-01-09 11:43:48
LookAtMe	27	1	1	2	2	144	42	1	0.4870602935552597	False	stim\morph\7&8 20.jpg	2019-01-09 11:43:57
LookAtMe	27	1	1	2	2	145	44	1	0.6150042908266187	False	stim\morph\7&8 60.jpg	2019-01-09 11:44:05
LookAtMe	27	1	1	2	2	146	46	4	0.4294155756942928	True	stim\8 F080C + F101C.jpg	2019-01-09 11:44:14
LookAtMe	27	1	1	2	2	147	45	1	0.5601914953440428	False	stim\morph\7&8 80.jpg	2019-01-09 11:44:22
LookAtMe	27	1	1	2	2	148	12	1	0.5374024077318609	False	stim\morph\1&2 80.jpg	2019-01-09 11:44:31
LookAtMe	27	1	1	2	2	149	43	1	0.44321913085877895	False	stim\morph\7&8 40.jpg	2019-01-09 11:44:40
LookAtMe	27	1	1	2	2	150	14	1	0.4369158879853785	False	stim\morph\1&2 40.jpg	2019-01-09 11:44:49
LookAtMe	27	1	1	2	2	151	16	4	0.5914661334827542	True	stim\1 M024C.jpg	2019-01-09 11:44:57
LookAtMe	27	1	1	2	2	152	42	1	0.9818564667366445	False	stim\morph\7&8 20.jpg	2019-01-09 11:45:06
LookAtMe	27	1	1	2	2	153	45	1	0.564177218824625	False	stim\morph\7&8 80.jpg	2019-01-09 11:45:15
LookAtMe	27	1	1	2	2	154	16	4	0.44468241604045033	False	stim\1 M024C.jpg	2019-01-09 11:45:25
LookAtMe	27	1	1	2	2	155	13	1	0.415850892663002	False	stim\morph\1&2 60.jpg	2019-01-09 11:45:35
LookAtMe	27	1	1	2	2	156	44	1	0.4566305740736425	False	stim\morph\7&8 60.jpg	2019-01-09 11:45:44
LookAtMe	27	1	1	2	2	157	15	1	0.8333555683493614	False	stim\morph\1&2 20.jpg	2019-01-09 11:45:53
LookAtMe	27	1	1	2	2	158	41	1	0.36842242861166596	False	stim\7 F080C.jpg	2019-01-09 11:46:03
LookAtMe	27	1	1	2	2	159	11	1	0.5061277691274881	False	stim\2 M024C + M010C.jpg	2019-01-09 11:46:11
LookAtMe	27	1	1	2	2	160	46	4	0.613750733435154	False	stim\8 F080C + F101C.jpg	2019-01-09 11:46:21
