expName	subject	pairs	cs1	cs2	block	trial	condition	rating	rt	shock	picName	timestamp
LookAtMe	11	1	1	2	1	1	41	1	1.5288171009160578	False	stim\7 F080C.jpg	2019-01-02 10:17:36
LookAtMe	11	1	1	2	1	2	46	5	0.716130509506911	False	stim\8 F080C + F101C.jpg	2019-01-02 10:17:45
LookAtMe	11	1	1	2	1	3	16	5	1.1998850405216217	False	stim\1 M024C.jpg	2019-01-02 10:17:55
LookAtMe	11	1	1	2	1	4	11	5	0.6328239175491035	False	stim\2 M024C + M010C.jpg	2019-01-02 10:18:03
LookAtMe	11	1	1	2	1	5	41		-1	False	stim\7 F080C.jpg	2019-01-02 10:18:12
LookAtMe	11	1	1	2	1	6	11	5	0.5904000685550272	False	stim\2 M024C + M010C.jpg	2019-01-02 10:18:20
LookAtMe	11	1	1	2	1	7	16	5	0.5933068078011274	False	stim\1 M024C.jpg	2019-01-02 10:18:29
LookAtMe	11	1	1	2	1	8	46		-1	False	stim\8 F080C + F101C.jpg	2019-01-02 10:18:39
LookAtMe	11	1	1	2	1	9	11	5	1.0823586112819612	False	stim\2 M024C + M010C.jpg	2019-01-02 10:18:47
LookAtMe	11	1	1	2	1	10	16	5	0.6147371735423803	False	stim\1 M024C.jpg	2019-01-02 10:18:55
LookAtMe	11	1	1	2	1	11	46	3	1.3165587382391095	False	stim\8 F080C + F101C.jpg	2019-01-02 10:19:04
LookAtMe	11	1	1	2	1	12	41	1	0.46560528920963407	False	stim\7 F080C.jpg	2019-01-02 10:19:12
LookAtMe	11	1	1	2	1	13	16	5	0.5521710701286793	False	stim\1 M024C.jpg	2019-01-02 10:19:21
LookAtMe	11	1	1	2	1	14	41	3	0.7406860552728176	False	stim\7 F080C.jpg	2019-01-02 10:19:29
LookAtMe	11	1	1	2	1	15	46	3	1.2777681625448167	False	stim\8 F080C + F101C.jpg	2019-01-02 10:19:38
LookAtMe	11	1	1	2	1	16	11	5	0.8681568135507405	False	stim\2 M024C + M010C.jpg	2019-01-02 10:19:47
LookAtMe	11	1	1	2	1	17	16	5	1.1052035856992006	True	stim\1 M024C.jpg	2019-01-02 10:19:56
LookAtMe	11	1	1	2	1	18	41	3	0.06336114462465048	False	stim\7 F080C.jpg	2019-01-02 10:20:04
LookAtMe	11	1	1	2	1	19	11	5	0.36474047880619764	False	stim\2 M024C + M010C.jpg	2019-01-02 10:20:14
LookAtMe	11	1	1	2	1	20	46	4	0.7047757776454091	True	stim\8 F080C + F101C.jpg	2019-01-02 10:20:24
LookAtMe	11	1	1	2	1	21	41	1	1.0698236366733909	False	stim\7 F080C.jpg	2019-01-02 10:20:34
LookAtMe	11	1	1	2	1	22	46	4	0.30298293847590685	True	stim\8 F080C + F101C.jpg	2019-01-02 10:20:43
LookAtMe	11	1	1	2	1	23	16	5	0.6363412104547024	True	stim\1 M024C.jpg	2019-01-02 10:20:52
LookAtMe	11	1	1	2	1	24	11	4	0.008244574535638094	False	stim\2 M024C + M010C.jpg	2019-01-02 10:21:00
LookAtMe	11	1	1	2	1	25	16	5	0.6640567909926176	False	stim\1 M024C.jpg	2019-01-02 10:21:09
LookAtMe	11	1	1	2	1	26	46	4	0.949338186532259	True	stim\8 F080C + F101C.jpg	2019-01-02 10:21:18
LookAtMe	11	1	1	2	1	27	41	1	0.9156661042943597	False	stim\7 F080C.jpg	2019-01-02 10:21:27
LookAtMe	11	1	1	2	1	28	11	5	0.015051704831421375	False	stim\2 M024C + M010C.jpg	2019-01-02 10:21:37
LookAtMe	11	1	1	2	1	29	41	1	1.2454016194678843	False	stim\7 F080C.jpg	2019-01-02 10:21:47
LookAtMe	11	1	1	2	1	30	11	4	0.5130139226093888	False	stim\2 M024C + M010C.jpg	2019-01-02 10:21:55
LookAtMe	11	1	1	2	1	31	16	1	0.3032885151915252	True	stim\1 M024C.jpg	2019-01-02 10:22:05
LookAtMe	11	1	1	2	1	32	46	3	1.6298372535966337	False	stim\8 F080C + F101C.jpg	2019-01-02 10:22:15
LookAtMe	11	1	1	2	1	33	11	3	1.0474855531938374	False	stim\2 M024C + M010C.jpg	2019-01-02 10:22:23
LookAtMe	11	1	1	2	1	34	46		-1	True	stim\8 F080C + F101C.jpg	2019-01-02 10:22:31
LookAtMe	11	1	1	2	1	35	16		-1	True	stim\1 M024C.jpg	2019-01-02 10:22:40
LookAtMe	11	1	1	2	1	36	41	3	1.6000670646317303	False	stim\7 F080C.jpg	2019-01-02 10:22:49
LookAtMe	11	1	1	2	1	37	46	5	0.3910742015577853	False	stim\8 F080C + F101C.jpg	2019-01-02 10:22:57
LookAtMe	11	1	1	2	1	38	41	3	0.5432528438977897	False	stim\7 F080C.jpg	2019-01-02 10:23:05
LookAtMe	11	1	1	2	1	39	16	5	0.6956673539243639	True	stim\1 M024C.jpg	2019-01-02 10:23:15
LookAtMe	11	1	1	2	1	40	11	5	0.544049387332052	False	stim\2 M024C + M010C.jpg	2019-01-02 10:23:25
LookAtMe	11	1	1	2	1	41	16	1	1.6509515256620944	False	stim\1 M024C.jpg	2019-01-02 10:23:35
LookAtMe	11	1	1	2	1	42	41	3	1.8316789497621357	False	stim\7 F080C.jpg	2019-01-02 10:23:44
LookAtMe	11	1	1	2	1	43	46	4	0.13349186116829515	True	stim\8 F080C + F101C.jpg	2019-01-02 10:23:53
LookAtMe	11	1	1	2	1	44	11	5	0.8959198682568967	False	stim\2 M024C + M010C.jpg	2019-01-02 10:24:01
LookAtMe	11	1	1	2	1	45	16	5	0.4791708732955158	True	stim\1 M024C.jpg	2019-01-02 10:24:11
LookAtMe	11	1	1	2	1	46	11	1	1.1855944246053696	False	stim\2 M024C + M010C.jpg	2019-01-02 10:24:20
LookAtMe	11	1	1	2	1	47	46	3	0.5643851435743272	True	stim\8 F080C + F101C.jpg	2019-01-02 10:24:29
LookAtMe	11	1	1	2	1	48	41	3	0.6375872562639415	False	stim\7 F080C.jpg	2019-01-02 10:24:39
LookAtMe	11	1	1	2	2	49	12	1	1.434160585515201	False	stim\morph\1&2 80.jpg	2019-01-02 10:29:58
LookAtMe	11	1	1	2	2	50	16	5	0.6276203920133412	True	stim\1 M024C.jpg	2019-01-02 10:30:07
LookAtMe	11	1	1	2	2	51	15	5	0.6053610318340361	False	stim\morph\1&2 20.jpg	2019-01-02 10:30:16
LookAtMe	11	1	1	2	2	52	14		-1	False	stim\morph\1&2 40.jpg	2019-01-02 10:30:25
LookAtMe	11	1	1	2	2	53	16	1	1.7264840775169432	False	stim\1 M024C.jpg	2019-01-02 10:30:34
LookAtMe	11	1	1	2	2	54	43	4	0.4717237441800535	False	stim\morph\7&8 40.jpg	2019-01-02 10:30:44
LookAtMe	11	1	1	2	2	55	45	4	0.4505656030960381	False	stim\morph\7&8 80.jpg	2019-01-02 10:30:53
LookAtMe	11	1	1	2	2	56	13		-1	False	stim\morph\1&2 60.jpg	2019-01-02 10:31:02
LookAtMe	11	1	1	2	2	57	41		-1	False	stim\7 F080C.jpg	2019-01-02 10:31:11
LookAtMe	11	1	1	2	2	58	46	4	0.31423340691253543	True	stim\8 F080C + F101C.jpg	2019-01-02 10:31:20
LookAtMe	11	1	1	2	2	59	11	1	0.8493315163068473	False	stim\2 M024C + M010C.jpg	2019-01-02 10:31:30
LookAtMe	11	1	1	2	2	60	42	4	0.7021622965112329	False	stim\morph\7&8 20.jpg	2019-01-02 10:31:39
LookAtMe	11	1	1	2	2	61	46	4	0.7298745717853308	False	stim\8 F080C + F101C.jpg	2019-01-02 10:31:47
LookAtMe	11	1	1	2	2	62	44	4	1.2083330326713622	False	stim\morph\7&8 60.jpg	2019-01-02 10:31:56
LookAtMe	11	1	1	2	2	63	16	5	1.2945253308862448	False	stim\1 M024C.jpg	2019-01-02 10:32:05
LookAtMe	11	1	1	2	2	64	15		-1	False	stim\morph\1&2 20.jpg	2019-01-02 10:32:14
LookAtMe	11	1	1	2	2	65	45		-1	False	stim\morph\7&8 80.jpg	2019-01-02 10:32:23
LookAtMe	11	1	1	2	2	66	46	4	0.46837441390380263	True	stim\8 F080C + F101C.jpg	2019-01-02 10:32:32
LookAtMe	11	1	1	2	2	67	13	5	0.7146512996405363	False	stim\morph\1&2 60.jpg	2019-01-02 10:32:42
LookAtMe	11	1	1	2	2	68	16		-1	True	stim\1 M024C.jpg	2019-01-02 10:32:51
LookAtMe	11	1	1	2	2	69	42	5	1.8264850392006338	False	stim\morph\7&8 20.jpg	2019-01-02 10:33:01
LookAtMe	11	1	1	2	2	70	12	5	1.0344487950205803	False	stim\morph\1&2 80.jpg	2019-01-02 10:33:10
LookAtMe	11	1	1	2	2	71	46	5	0.8500186889432371	False	stim\8 F080C + F101C.jpg	2019-01-02 10:33:18
LookAtMe	11	1	1	2	2	72	44	5	1.3233448350802064	False	stim\morph\7&8 60.jpg	2019-01-02 10:33:28
LookAtMe	11	1	1	2	2	73	41	4	0.6369057921692729	False	stim\7 F080C.jpg	2019-01-02 10:33:38
LookAtMe	11	1	1	2	2	74	11	5	0.3547582905739546	False	stim\2 M024C + M010C.jpg	2019-01-02 10:33:47
LookAtMe	11	1	1	2	2	75	14	5	1.5639302334748209	False	stim\morph\1&2 40.jpg	2019-01-02 10:33:55
LookAtMe	11	1	1	2	2	76	43	4	0.621874819509685	False	stim\morph\7&8 40.jpg	2019-01-02 10:34:05
LookAtMe	11	1	1	2	2	77	14	5	0.5838889009319246	False	stim\morph\1&2 40.jpg	2019-01-02 10:34:15
LookAtMe	11	1	1	2	2	78	43	4	0.6275539887137711	False	stim\morph\7&8 40.jpg	2019-01-02 10:34:25
LookAtMe	11	1	1	2	2	79	42	5	0.2895708940923214	False	stim\morph\7&8 20.jpg	2019-01-02 10:34:33
LookAtMe	11	1	1	2	2	80	15	5	0.748020208440721	False	stim\morph\1&2 20.jpg	2019-01-02 10:34:42
LookAtMe	11	1	1	2	2	81	16	5	0.7717987410724163	True	stim\1 M024C.jpg	2019-01-02 10:34:51
LookAtMe	11	1	1	2	2	82	13		-1	False	stim\morph\1&2 60.jpg	2019-01-02 10:35:00
LookAtMe	11	1	1	2	2	83	44		-1	False	stim\morph\7&8 60.jpg	2019-01-02 10:35:09
LookAtMe	11	1	1	2	2	84	46		-1	False	stim\8 F080C + F101C.jpg	2019-01-02 10:35:18
LookAtMe	11	1	1	2	2	85	41		-1	False	stim\7 F080C.jpg	2019-01-02 10:35:27
LookAtMe	11	1	1	2	2	86	12		-1	False	stim\morph\1&2 80.jpg	2019-01-02 10:35:35
LookAtMe	11	1	1	2	2	87	46		-1	True	stim\8 F080C + F101C.jpg	2019-01-02 10:35:45
LookAtMe	11	1	1	2	2	88	16		-1	False	stim\1 M024C.jpg	2019-01-02 10:35:54
LookAtMe	11	1	1	2	2	89	45		-1	False	stim\morph\7&8 80.jpg	2019-01-02 10:36:03
LookAtMe	11	1	1	2	2	90	11		-1	False	stim\2 M024C + M010C.jpg	2019-01-02 10:36:12
LookAtMe	11	1	1	2	2	91	45		-1	False	stim\morph\7&8 80.jpg	2019-01-02 10:36:21
LookAtMe	11	1	1	2	2	92	11		-1	False	stim\2 M024C + M010C.jpg	2019-01-02 10:36:30
LookAtMe	11	1	1	2	2	93	46	3	1.694914077874273	False	stim\8 F080C + F101C.jpg	2019-01-02 10:36:39
LookAtMe	11	1	1	2	2	94	42		-1	False	stim\morph\7&8 20.jpg	2019-01-02 10:36:48
LookAtMe	11	1	1	2	2	95	41		-1	False	stim\7 F080C.jpg	2019-01-02 10:36:56
LookAtMe	11	1	1	2	2	96	46		-1	True	stim\8 F080C + F101C.jpg	2019-01-02 10:37:05
LookAtMe	11	1	1	2	2	97	15		-1	False	stim\morph\1&2 20.jpg	2019-01-02 10:37:14
LookAtMe	11	1	1	2	2	98	44		-1	False	stim\morph\7&8 60.jpg	2019-01-02 10:37:22
LookAtMe	11	1	1	2	2	99	16		-1	False	stim\1 M024C.jpg	2019-01-02 10:37:31
LookAtMe	11	1	1	2	2	100	43		-1	False	stim\morph\7&8 40.jpg	2019-01-02 10:37:40
LookAtMe	11	1	1	2	2	101	16		-1	True	stim\1 M024C.jpg	2019-01-02 10:37:49
LookAtMe	11	1	1	2	2	102	12		-1	False	stim\morph\1&2 80.jpg	2019-01-02 10:37:58
LookAtMe	11	1	1	2	2	103	13		-1	False	stim\morph\1&2 60.jpg	2019-01-02 10:38:08
LookAtMe	11	1	1	2	2	104	14		-1	False	stim\morph\1&2 40.jpg	2019-01-02 10:38:16
LookAtMe	11	1	1	2	2	105	44		-1	False	stim\morph\7&8 60.jpg	2019-01-02 10:38:25
LookAtMe	11	1	1	2	2	106	46		-1	False	stim\8 F080C + F101C.jpg	2019-01-02 10:38:34
LookAtMe	11	1	1	2	2	107	42		-1	False	stim\morph\7&8 20.jpg	2019-01-02 10:38:44
LookAtMe	11	1	1	2	2	108	16		-1	True	stim\1 M024C.jpg	2019-01-02 10:38:54
LookAtMe	11	1	1	2	2	109	43		-1	False	stim\morph\7&8 40.jpg	2019-01-02 10:39:03
LookAtMe	11	1	1	2	2	110	45	4	1.37809964036569	False	stim\morph\7&8 80.jpg	2019-01-02 10:39:12
LookAtMe	11	1	1	2	2	111	11	5	0.6461289953440428	False	stim\2 M024C + M010C.jpg	2019-01-02 10:39:21
LookAtMe	11	1	1	2	2	112	16	5	0.6990893976762891	False	stim\1 M024C.jpg	2019-01-02 10:39:30
LookAtMe	11	1	1	2	2	113	41		-1	False	stim\7 F080C.jpg	2019-01-02 10:39:40
LookAtMe	11	1	1	2	2	114	13	5	0.48245920799672604	False	stim\morph\1&2 60.jpg	2019-01-02 10:39:49
LookAtMe	11	1	1	2	2	115	15		-1	False	stim\morph\1&2 20.jpg	2019-01-02 10:39:59
LookAtMe	11	1	1	2	2	116	46	4	0.4335821820423007	True	stim\8 F080C + F101C.jpg	2019-01-02 10:40:08
LookAtMe	11	1	1	2	2	117	14	4	1.1250399625860155	False	stim\morph\1&2 40.jpg	2019-01-02 10:40:16
LookAtMe	11	1	1	2	2	118	12	4	0.38914548931643367	False	stim\morph\1&2 80.jpg	2019-01-02 10:40:25
LookAtMe	11	1	1	2	2	119	14	4	0.7280594375915825	False	stim\morph\1&2 40.jpg	2019-01-02 10:40:33
LookAtMe	11	1	1	2	2	120	43	4	1.0479089142754674	False	stim\morph\7&8 40.jpg	2019-01-02 10:40:43
LookAtMe	11	1	1	2	2	121	44	4	0.56623002467677	False	stim\morph\7&8 60.jpg	2019-01-02 10:40:53
LookAtMe	11	1	1	2	2	122	46	4	0.634222602006048	False	stim\8 F080C + F101C.jpg	2019-01-02 10:41:01
LookAtMe	11	1	1	2	2	123	12		-1	False	stim\morph\1&2 80.jpg	2019-01-02 10:41:11
LookAtMe	11	1	1	2	2	124	16	4	0.39247288554906845	True	stim\1 M024C.jpg	2019-01-02 10:41:21
LookAtMe	11	1	1	2	2	125	42	4	0.6880240184254944	False	stim\morph\7&8 20.jpg	2019-01-02 10:41:29
LookAtMe	11	1	1	2	2	126	15	4	0.7499278876930475	False	stim\morph\1&2 20.jpg	2019-01-02 10:41:39
LookAtMe	11	1	1	2	2	127	11	4	1.1108698341995478	False	stim\2 M024C + M010C.jpg	2019-01-02 10:41:48
LookAtMe	11	1	1	2	2	128	13	4	1.0035972171463072	False	stim\morph\1&2 60.jpg	2019-01-02 10:41:57
LookAtMe	11	1	1	2	2	129	46	4	0.6617566989734769	True	stim\8 F080C + F101C.jpg	2019-01-02 10:42:08
LookAtMe	11	1	1	2	2	130	16	4	0.9741079667583108	False	stim\1 M024C.jpg	2019-01-02 10:42:17
LookAtMe	11	1	1	2	2	131	45	4	0.6789095853455365	False	stim\morph\7&8 80.jpg	2019-01-02 10:42:25
LookAtMe	11	1	1	2	2	132	41	4	0.7240881361067295	False	stim\7 F080C.jpg	2019-01-02 10:42:34
LookAtMe	11	1	1	2	2	133	16	4	0.7332578552886844	False	stim\1 M024C.jpg	2019-01-02 10:42:43
LookAtMe	11	1	1	2	2	134	15	4	0.776308482978493	False	stim\morph\1&2 20.jpg	2019-01-02 10:42:53
LookAtMe	11	1	1	2	2	135	41	3	1.315201218239963	False	stim\7 F080C.jpg	2019-01-02 10:43:02
LookAtMe	11	1	1	2	2	136	13	5	0.6151644405908883	False	stim\morph\1&2 60.jpg	2019-01-02 10:43:11
LookAtMe	11	1	1	2	2	137	46	4	0.6724209524691105	False	stim\8 F080C + F101C.jpg	2019-01-02 10:43:20
LookAtMe	11	1	1	2	2	138	16	5	0.7774337404407561	True	stim\1 M024C.jpg	2019-01-02 10:43:30
LookAtMe	11	1	1	2	2	139	12		-1	False	stim\morph\1&2 80.jpg	2019-01-02 10:43:38
LookAtMe	11	1	1	2	2	140	11	5	0.918383848387748	False	stim\2 M024C + M010C.jpg	2019-01-02 10:43:47
LookAtMe	11	1	1	2	2	141	14		-1	False	stim\morph\1&2 40.jpg	2019-01-02 10:43:56
LookAtMe	11	1	1	2	2	142	43		-1	False	stim\morph\7&8 40.jpg	2019-01-02 10:44:04
LookAtMe	11	1	1	2	2	143	46	4	0.7023338647559285	True	stim\8 F080C + F101C.jpg	2019-01-02 10:44:13
LookAtMe	11	1	1	2	2	144	42	4	0.7216997062787414	False	stim\morph\7&8 20.jpg	2019-01-02 10:44:22
LookAtMe	11	1	1	2	2	145	44	4	0.9663026784546673	False	stim\morph\7&8 60.jpg	2019-01-02 10:44:30
LookAtMe	11	1	1	2	2	146	46	4	0.5124391247518361	True	stim\8 F080C + F101C.jpg	2019-01-02 10:44:40
LookAtMe	11	1	1	2	2	147	45	4	0.7529671331867576	False	stim\morph\7&8 80.jpg	2019-01-02 10:44:49
LookAtMe	11	1	1	2	2	148	12	5	0.7322113211266696	False	stim\morph\1&2 80.jpg	2019-01-02 10:44:59
LookAtMe	11	1	1	2	2	149	43	4	0.3853445537388325	False	stim\morph\7&8 40.jpg	2019-01-02 10:45:08
LookAtMe	11	1	1	2	2	150	14	4	1.3990312274545431	False	stim\morph\1&2 40.jpg	2019-01-02 10:45:17
LookAtMe	11	1	1	2	2	151	16	5	0.9222794314846396	True	stim\1 M024C.jpg	2019-01-02 10:45:26
LookAtMe	11	1	1	2	2	152	42		-1	False	stim\morph\7&8 20.jpg	2019-01-02 10:45:35
LookAtMe	11	1	1	2	2	153	45	4	0.5175930731929839	False	stim\morph\7&8 80.jpg	2019-01-02 10:45:45
LookAtMe	11	1	1	2	2	154	16	4	0.9238614016212523	False	stim\1 M024C.jpg	2019-01-02 10:45:53
LookAtMe	11	1	1	2	2	155	13	1	0.7086310982704163	False	stim\morph\1&2 60.jpg	2019-01-02 10:46:03
LookAtMe	11	1	1	2	2	156	44	4	0.6075232080183923	False	stim\morph\7&8 60.jpg	2019-01-02 10:46:11
LookAtMe	11	1	1	2	2	157	15	2	0.6136062075383961	False	stim\morph\1&2 20.jpg	2019-01-02 10:46:21
LookAtMe	11	1	1	2	2	158	41	2	1.8440922345034778	False	stim\7 F080C.jpg	2019-01-02 10:46:30
LookAtMe	11	1	1	2	2	159	11	3	1.1053174640983343	False	stim\2 M024C + M010C.jpg	2019-01-02 10:46:39
LookAtMe	11	1	1	2	2	160	46	4	0.819823035504669	False	stim\8 F080C + F101C.jpg	2019-01-02 10:46:48
